* Distortion data saved by REW V5.20.13
* Dated: Oct 16, 2023 7:17:45 AM
* Source: Universal Audio Thunderbolt, Universal Audio Thunderbolt, 1, volume: no control
* Format: 256k Log Swept Sine, 1 sweep at -40.0 dBFS with no timing reference
* Measurement: 312 （Pad -20）9格
* Frequency Step: 24 ppo
* Freq (Hz) Fundamental (dB) THD (%) Noise (%) H2 (%) H3 (%) H4 (%) H5 (%) H6 (%) H7 (%) H8 (%) H9 (%)
20.000 112.778 9.43 0.0016 6.11 6.06 2.86 2.19 0.031 0.294 1.03 0.809
20.586 112.784 9.47 0.0026 6.14 6.09 2.87 2.19 0.017 0.307 1.04 0.809
21.189 112.789 9.50 0.0026 6.17 6.11 2.87 2.19 0.010 0.319 1.04 0.809
21.810 112.794 9.54 0.0026 6.20 6.14 2.87 2.19 0.0098 0.331 1.05 0.809
22.449 112.799 9.56 0.0026 6.22 6.16 2.87 2.18 0.016 0.341 1.06 0.808
23.107 112.803 9.59 0.0023 6.24 6.18 2.87 2.18 0.031 0.351 1.06 0.808
23.784 112.808 9.61 0.0023 6.26 6.19 2.87 2.18 0.046 0.360 1.07 0.808
24.481 112.812 9.64 0.0023 6.29 6.20 2.87 2.17 0.058 0.369 1.07 0.807
25.198 112.817 9.66 0.0023 6.31 6.22 2.86 2.17 0.070 0.377 1.07 0.807
25.937 112.821 9.68 0.0024 6.33 6.22 2.86 2.17 0.082 0.385 1.08 0.807
26.697 112.825 9.69 0.0024 6.34 6.23 2.86 2.17 0.092 0.393 1.08 0.806
27.479 112.829 9.70 0.0024 6.35 6.25 2.86 2.16 0.103 0.400 1.08 0.805
28.284 112.832 9.72 0.0025 6.36 6.26 2.86 2.16 0.113 0.408 1.09 0.804
29.113 112.835 9.74 0.0025 6.37 6.27 2.86 2.16 0.122 0.416 1.09 0.804
29.966 112.839 9.75 0.0025 6.38 6.28 2.86 2.16 0.131 0.423 1.10 0.804
30.844 112.842 9.77 0.0025 6.40 6.30 2.86 2.16 0.140 0.430 1.10 0.804
31.748 112.845 9.78 0.0036 6.41 6.31 2.85 2.15 0.148 0.436 1.10 0.804
32.678 112.847 9.80 0.0036 6.42 6.32 2.85 2.15 0.156 0.442 1.10 0.804
33.636 112.850 9.81 0.0036 6.43 6.33 2.85 2.15 0.164 0.448 1.11 0.803
34.621 112.852 9.83 0.0025 6.45 6.34 2.85 2.15 0.170 0.453 1.11 0.803
35.636 112.855 9.84 0.0025 6.46 6.35 2.85 2.15 0.177 0.458 1.11 0.803
36.680 112.857 9.85 0.0021 6.46 6.35 2.85 2.15 0.183 0.463 1.11 0.802
37.755 112.860 9.86 0.0021 6.47 6.36 2.85 2.14 0.190 0.467 1.11 0.801
38.861 112.862 9.86 0.0021 6.48 6.36 2.85 2.14 0.195 0.471 1.12 0.800
40.000 112.864 9.87 0.0025 6.48 6.37 2.85 2.14 0.200 0.474 1.12 0.800
41.172 112.866 9.87 0.0025 6.48 6.37 2.85 2.14 0.204 0.476 1.12 0.799
42.379 112.868 9.88 0.0023 6.49 6.38 2.84 2.14 0.210 0.479 1.12 0.798
43.620 112.870 9.89 0.0023 6.50 6.38 2.84 2.13 0.216 0.482 1.12 0.797
44.898 112.872 9.89 0.0093 6.50 6.39 2.84 2.13 0.222 0.485 1.12 0.796
46.214 112.874 9.90 0.0093 6.51 6.39 2.84 2.13 0.227 0.488 1.12 0.795
47.568 112.877 9.91 0.046 6.51 6.40 2.83 2.13 0.232 0.491 1.12 0.794
48.962 112.879 9.91 0.046 6.52 6.41 2.83 2.13 0.236 0.495 1.12 0.793
50.397 112.879 9.92 0.052 6.52 6.41 2.83 2.12 0.240 0.498 1.12 0.792
51.874 112.880 9.93 0.052 6.53 6.42 2.83 2.12 0.243 0.500 1.13 0.792
53.394 112.882 9.93 0.014 6.53 6.42 2.83 2.12 0.246 0.502 1.13 0.792
54.958 112.884 9.93 0.014 6.53 6.42 2.83 2.12 0.249 0.504 1.13 0.792
56.569 112.885 9.93 0.0025 6.54 6.42 2.83 2.12 0.251 0.505 1.13 0.791
58.226 112.886 9.94 0.0041 6.54 6.43 2.83 2.12 0.252 0.508 1.13 0.790
59.932 112.887 9.95 0.0041 6.55 6.44 2.83 2.12 0.255 0.511 1.13 0.789
61.688 112.888 9.95 0.0022 6.55 6.44 2.83 2.12 0.259 0.515 1.13 0.790
63.496 112.889 9.96 0.0031 6.55 6.44 2.82 2.12 0.261 0.518 1.13 0.789
65.357 112.890 9.96 0.0031 6.56 6.45 2.82 2.11 0.263 0.519 1.13 0.789
67.272 112.891 9.97 0.0019 6.56 6.45 2.82 2.11 0.267 0.522 1.13 0.788
69.243 112.891 9.98 0.0024 6.57 6.46 2.82 2.11 0.269 0.524 1.13 0.787
71.272 112.892 9.99 0.0024 6.58 6.47 2.82 2.11 0.271 0.525 1.13 0.787
73.360 112.892 10.00 0.0029 6.58 6.47 2.83 2.11 0.274 0.528 1.13 0.788
75.510 112.892 10.0 0.0026 6.59 6.48 2.83 2.11 0.276 0.531 1.14 0.789
77.723 112.893 10.0 0.0022 6.60 6.49 2.83 2.11 0.279 0.534 1.14 0.789
80.000 112.893 10.0 0.0022 6.61 6.49 2.83 2.11 0.283 0.536 1.14 0.790
82.344 112.893 10.0 0.0021 6.62 6.50 2.83 2.11 0.287 0.538 1.14 0.791
84.757 112.893 10.0 0.0021 6.63 6.50 2.83 2.11 0.290 0.541 1.15 0.791
87.241 112.893 10.1 0.0023 6.63 6.50 2.84 2.11 0.293 0.543 1.15 0.792
89.797 112.894 10.1 0.0029 6.64 6.50 2.84 2.11 0.295 0.544 1.15 0.792
92.428 112.894 10.1 0.0030 6.64 6.51 2.83 2.11 0.297 0.546 1.15 0.791
95.137 112.895 10.1 0.0024 6.65 6.51 2.83 2.11 0.298 0.547 1.15 0.791
97.924 112.895 10.1 0.0054 6.65 6.51 2.84 2.11 0.300 0.549 1.15 0.790
100.794 112.896 10.1 0.0091 6.65 6.51 2.83 2.10 0.301 0.549 1.15 0.790
103.747 112.897 10.1 0.0028 6.65 6.51 2.83 2.10 0.302 0.549 1.15 0.789
106.787 112.897 10.1 0.0033 6.66 6.51 2.83 2.10 0.304 0.550 1.15 0.789
109.916 112.898 10.1 0.0027 6.66 6.51 2.83 2.10 0.306 0.551 1.15 0.789
113.137 112.899 10.1 0.0028 6.66 6.51 2.83 2.10 0.307 0.551 1.15 0.789
116.452 112.899 10.1 0.0036 6.67 6.51 2.83 2.10 0.309 0.553 1.15 0.789
119.865 112.900 10.1 0.0020 6.67 6.51 2.83 2.10 0.311 0.555 1.15 0.788
123.377 112.901 10.1 0.0026 6.67 6.52 2.83 2.10 0.313 0.558 1.15 0.787
126.992 112.902 10.1 0.0035 6.67 6.53 2.83 2.10 0.314 0.561 1.15 0.786
130.713 112.903 10.1 0.0038 6.68 6.53 2.83 2.10 0.316 0.564 1.15 0.785
134.543 112.903 10.1 0.0028 6.68 6.54 2.83 2.10 0.319 0.565 1.15 0.786
138.486 112.904 10.1 0.0031 6.68 6.55 2.83 2.09 0.322 0.566 1.15 0.786
142.544 112.905 10.1 0.0031 6.68 6.56 2.83 2.09 0.324 0.568 1.15 0.785
146.721 112.906 10.1 0.010 6.69 6.56 2.83 2.09 0.327 0.570 1.15 0.783
151.020 112.908 10.1 0.014 6.69 6.57 2.83 2.09 0.331 0.571 1.15 0.782
155.445 112.908 10.1 0.0031 6.69 6.57 2.83 2.09 0.333 0.573 1.15 0.782
160.000 112.909 10.1 0.0029 6.70 6.58 2.82 2.09 0.336 0.575 1.16 0.782
164.688 112.910 10.1 0.0031 6.70 6.58 2.83 2.08 0.339 0.576 1.16 0.782
169.514 112.911 10.1 0.0042 6.71 6.58 2.82 2.08 0.341 0.576 1.16 0.782
174.481 112.912 10.2 0.0024 6.71 6.58 2.82 2.08 0.343 0.577 1.16 0.783
179.594 112.912 10.2 0.0022 6.72 6.58 2.82 2.08 0.346 0.579 1.16 0.782
184.856 112.913 10.2 0.0022 6.72 6.58 2.82 2.08 0.347 0.582 1.16 0.782
190.273 112.914 10.2 0.0040 6.72 6.59 2.82 2.08 0.350 0.585 1.16 0.780
195.849 112.915 10.2 0.0041 6.72 6.59 2.82 2.08 0.353 0.588 1.16 0.779
201.587 112.916 10.2 0.0051 6.73 6.60 2.82 2.08 0.356 0.589 1.16 0.779
207.494 112.917 10.2 0.0034 6.73 6.60 2.82 2.08 0.359 0.590 1.16 0.778
213.574 112.917 10.2 0.0031 6.73 6.61 2.82 2.08 0.361 0.592 1.16 0.779
219.833 112.918 10.2 0.0024 6.74 6.62 2.81 2.08 0.363 0.593 1.16 0.778
226.274 112.919 10.2 0.0035 6.74 6.62 2.82 2.08 0.365 0.594 1.16 0.778
232.905 112.919 10.2 0.0039 6.74 6.62 2.82 2.08 0.366 0.593 1.16 0.778
239.729 112.919 10.2 0.0028 6.74 6.61 2.82 2.08 0.367 0.593 1.16 0.778
246.754 112.919 10.2 0.010 6.75 6.61 2.82 2.08 0.367 0.593 1.16 0.778
253.984 112.919 10.2 0.0076 6.75 6.60 2.82 2.08 0.367 0.595 1.16 0.776
261.426 112.919 10.2 0.0030 6.75 6.60 2.82 2.08 0.367 0.596 1.16 0.777
269.087 112.919 10.2 0.0035 6.75 6.60 2.82 2.08 0.367 0.596 1.16 0.777
276.972 112.920 10.2 0.0032 6.75 6.60 2.82 2.08 0.368 0.596 1.16 0.777
285.088 112.920 10.2 0.0044 6.75 6.61 2.82 2.08 0.367 0.596 1.16 0.778
293.441 112.920 10.2 0.0040 6.75 6.62 2.82 2.07 0.367 0.596 1.17 0.779
302.040 112.920 10.2 0.0051 6.75 6.62 2.82 2.07 0.366 0.595 1.17 0.779
310.890 112.920 10.2 0.0038 6.75 6.63 2.82 2.07 0.366 0.597 1.17 0.778
320.000 112.920 10.2 0.0042 6.76 6.62 2.82 2.08 0.367 0.600 1.16 0.777
329.377 112.920 10.2 0.0046 6.76 6.62 2.82 2.08 0.368 0.601 1.16 0.778
339.028 112.921 10.2 0.0030 6.76 6.62 2.82 2.08 0.368 0.600 1.17 0.779
348.962 112.922 10.2 0.020 6.76 6.63 2.82 2.07 0.371 0.600 1.17 0.778
359.188 112.923 10.2 0.0044 6.77 6.64 2.82 2.07 0.376 0.602 1.17 0.776
369.713 112.924 10.2 0.0030 6.78 6.65 2.82 2.07 0.383 0.603 1.17 0.776
380.546 112.926 10.2 0.0047 6.78 6.65 2.81 2.07 0.389 0.608 1.17 0.775
391.697 112.928 10.3 0.0030 6.79 6.65 2.81 2.07 0.396 0.613 1.17 0.772
403.175 112.930 10.3 0.0036 6.80 6.66 2.81 2.08 0.403 0.615 1.18 0.769
414.989 112.932 10.3 0.0061 6.80 6.67 2.81 2.08 0.409 0.617 1.18 0.767
427.149 112.934 10.3 0.0040 6.81 6.69 2.80 2.07 0.417 0.619 1.18 0.768
439.665 112.936 10.3 0.0031 6.82 6.71 2.79 2.07 0.423 0.622 1.18 0.766
452.548 112.938 10.3 0.0052 6.82 6.73 2.79 2.06 0.428 0.629 1.18 0.762
465.809 112.939 10.3 0.0033 6.83 6.74 2.79 2.06 0.434 0.633 1.19 0.760
479.458 112.939 10.3 0.0031 6.83 6.74 2.79 2.07 0.440 0.632 1.19 0.760
493.507 112.939 10.3 0.0043 6.84 6.74 2.79 2.06 0.444 0.632 1.19 0.761
507.968 112.939 10.3 0.0042 6.84 6.74 2.79 2.06 0.442 0.633 1.19 0.759
522.853 112.939 10.3 0.0038 6.84 6.74 2.79 2.06 0.439 0.635 1.19 0.758
538.174 112.938 10.3 0.0081 6.84 6.73 2.79 2.07 0.438 0.633 1.19 0.760
553.943 112.938 10.3 0.0047 6.84 6.72 2.79 2.07 0.439 0.629 1.19 0.761
570.175 112.938 10.3 0.0050 6.84 6.72 2.80 2.07 0.439 0.629 1.19 0.760
586.883 112.939 10.3 0.0048 6.84 6.73 2.80 2.07 0.441 0.636 1.19 0.760
604.080 112.940 10.4 0.0028 6.85 6.75 2.80 2.06 0.446 0.638 1.19 0.757
621.780 112.941 10.4 0.0059 6.85 6.76 2.80 2.06 0.448 0.636 1.19 0.759
640.000 112.941 10.4 0.0061 6.85 6.76 2.79 2.06 0.447 0.636 1.19 0.760
658.753 112.941 10.4 0.0061 6.85 6.76 2.79 2.07 0.446 0.640 1.19 0.758
678.056 112.940 10.4 0.0047 6.85 6.75 2.79 2.07 0.445 0.637 1.19 0.760
697.925 112.938 10.3 0.0038 6.85 6.73 2.80 2.07 0.440 0.633 1.19 0.761
718.376 112.936 10.3 0.0039 6.85 6.71 2.81 2.07 0.433 0.632 1.19 0.763
739.426 112.934 10.3 0.0047 6.84 6.71 2.81 2.07 0.425 0.629 1.19 0.766
761.093 112.933 10.3 0.0038 6.84 6.71 2.81 2.06 0.420 0.629 1.19 0.768
783.394 112.933 10.3 0.0059 6.83 6.71 2.81 2.06 0.418 0.630 1.18 0.769
806.349 112.934 10.3 0.0049 6.84 6.71 2.81 2.06 0.420 0.627 1.19 0.768
829.977 112.936 10.3 0.0057 6.85 6.72 2.81 2.06 0.430 0.632 1.19 0.766
854.297 112.939 10.3 0.0050 6.86 6.73 2.80 2.07 0.443 0.637 1.19 0.760
879.330 112.944 10.4 0.0045 6.87 6.76 2.79 2.07 0.457 0.639 1.20 0.755
905.097 112.948 10.4 0.0072 6.88 6.81 2.78 2.06 0.475 0.649 1.20 0.749
931.618 112.950 10.4 0.0068 6.89 6.83 2.78 2.06 0.489 0.654 1.20 0.745
958.917 112.951 10.4 0.0047 6.90 6.83 2.78 2.06 0.493 0.653 1.20 0.744
987.015 112.950 10.4 0.0057 6.91 6.82 2.77 2.06 0.491 0.651 1.21 0.745
1015.937 112.949 10.4 0.0082 6.91 6.80 2.78 2.07 0.490 0.648 1.21 0.746
1045.706 112.949 10.4 0.0057 6.91 6.82 2.78 2.06 0.490 0.654 1.21 0.745
1076.347 112.949 10.4 0.0082 6.90 6.83 2.78 2.05 0.491 0.653 1.20 0.746
1107.887 112.948 10.4 0.0054 6.90 6.82 2.78 2.06 0.482 0.656 1.20 0.747
1140.350 112.944 10.4 0.0055 6.89 6.79 2.79 2.06 0.471 0.647 1.20 0.752
1173.765 112.939 10.4 0.0064 6.88 6.75 2.81 2.07 0.455 0.640 1.20 0.757
1208.159 112.936 10.4 0.0063 6.87 6.74 2.81 2.06 0.440 0.637 1.19 0.763
1243.561 112.935 10.4 0.0057 6.87 6.75 2.81 2.06 0.433 0.638 1.19 0.765
1280.000 112.938 10.4 0.0063 6.87 6.75 2.81 2.06 0.445 0.638 1.19 0.762
1317.507 112.944 10.4 0.0072 6.90 6.77 2.80 2.07 0.467 0.646 1.20 0.752
1356.113 112.952 10.5 0.0062 6.92 6.84 2.78 2.06 0.496 0.656 1.21 0.742
1395.850 112.956 10.5 0.0061 6.93 6.89 2.77 2.05 0.521 0.664 1.21 0.735
1436.751 112.957 10.5 0.0075 6.94 6.88 2.76 2.06 0.524 0.663 1.21 0.732
1478.851 112.956 10.5 0.0061 6.94 6.86 2.76 2.07 0.524 0.661 1.22 0.731
1522.185 112.956 10.5 0.0088 6.94 6.88 2.77 2.06 0.520 0.663 1.21 0.733
1566.789 112.951 10.5 0.0062 6.93 6.86 2.77 2.06 0.502 0.662 1.21 0.741
1612.699 112.943 10.4 0.0078 6.92 6.79 2.80 2.07 0.476 0.647 1.20 0.749
1659.955 112.937 10.4 0.0076 6.89 6.76 2.81 2.06 0.448 0.641 1.20 0.759
1708.595 112.937 10.4 0.0079 6.89 6.76 2.82 2.06 0.442 0.640 1.19 0.761
1758.661 112.943 10.4 0.0076 6.91 6.77 2.80 2.07 0.465 0.646 1.20 0.752
1810.193 112.954 10.5 0.0054 6.94 6.86 2.78 2.06 0.504 0.659 1.21 0.734
1863.236 112.960 10.5 0.0074 6.96 6.92 2.76 2.06 0.536 0.669 1.22 0.716
1917.833 112.960 10.5 0.0060 6.97 6.89 2.76 2.07 0.540 0.665 1.22 0.699
1974.030 112.957 10.5 0.0067 6.96 6.90 2.77 2.05 0.528 0.665 1.21 0.672
2031.873 112.949 10.5 0.0062 6.94 6.84 2.79 2.06 0.494 0.659 1.20 0.632
2091.412 112.937 10.4 0.0091 6.90 6.75 2.82 2.07 0.448 0.641 1.18 0.567
2152.695 112.933 10.4 0.0082 6.88 6.74 2.83 2.06 0.425 0.636 1.15 0.470
2215.774 112.941 10.4 0.011 6.90 6.75 2.82 2.07 0.449 0.641 1.11 0.353
2280.701 112.954 10.4 0.0083 6.94 6.86 2.78 2.06 0.501 0.659 1.04 0.246
